Folder: 1d-uptake

File: XRD_Experimental.csv
"5	88.43803"
"5.06	128.438"
"5.12	576.438"
"5.18	2582.44"
"5.24	4443.44"
"5.3	3464.44"
"5.36	1181.44"
"5.42	205.438"
"5.48	94.43803"
"5.54	82.43803"
"5.6	57.43803"
"5.66	61.43803"
"5.72	65.43803"
"5.78	44.43803"
"5.84	46.43803"
"5.9	40.43803"
"5.96	49.43803"
"6.02	38.43803"
"6.08	39.43803"
"6.14	47.43803"
"6.2	36.43803"
"6.26	22.43803"
"6.32	22.43803"
"6.38	18.43803"
"6.44	24.43803"
"6.5	23.43803"
"6.56	27.43803"
"6.62	21.43803"
"6.68	23.43803"
"6.74	22.43803"
"6.8	26.43803"
"6.86	17.43803"
"6.92	15.43803"
"6.98	15.43803"
"7.04	25.43803"
"7.1	17.43803"
"7.16	16.43803"
"7.22	18.43803"
"7.28	21.43803"
"7.34	20.43803"
"7.4	27.43803"
"7.46	21.43803"
"7.52	18.43803"
"7.58	11.43803"
"7.64	15.43803"
"7.7	21.43803"
"7.76	19.43803"
"7.82	17.43803"
"7.88	50.43803"
"7.94	113.438"
"8	155.438"
"8.06	150.438"
"8.12	70.43803"
"8.18	29.43803"
"8.24	21.43803"
"8.3	22.43803"
"8.36	16.43803"
"8.42	10.43803"
"8.48	13.43803"
"8.54	6.43803"
"8.6	15.43803"
"8.66	22.43803"
"8.72	31.43803"
"8.78	73.43803"
"8.84	199.438"
"8.9	200.438"
"8.96	134.438"
"9.02	38.43803"
"9.08	16.43803"
"9.14	16.43803"
"9.2	11.43803"
"9.26	17.43803"
"9.32	7.43803"
"9.38	6.43803"
"9.44	10.43803"
"9.5	19.43803"
"9.56	18.43803"
"9.62	19.43803"
"9.68	19.43803"
"9.74	12.43803"
"9.8	16.43803"
"9.86	20.43803"
"9.92	25.43803"
"9.98	18.43803"
"10.04	14.43803"
"10.1	13.43803"
"10.16	14.43803"
"10.22	10.43803"
"10.28	12.43803"
"10.34	19.43803"
"10.4	26.43803"
"10.46	19.43803"
"10.52	11.43803"
"10.58	13.43803"
"10.64	13.43803"
"10.7	14.43803"
"10.76	10.43803"
"10.82	21.43803"
"10.88	16.43803"
"10.94	26.43803"
"11	69.43803"
"11.06	111.438"
"11.12	66.43803"
"11.18	33.43803"
"11.24	9.43803"
"11.3	15.43803"
"11.36	20.43803"
"11.42	8.43803"
"11.48	7.43803"
"11.54	12.43803"
"11.6	8.43803"
"11.66	6.43803"
"11.72	4.43803"
"11.78	4.43803"
"11.84	22.43803"
"11.9	29.43803"
"11.96	27.43803"
"12.02	9.43803"
"12.08	13.43803"
"12.14	8.43803"
"12.2	5.43803"
"12.26	14.43803"
"12.32	7.43803"
"12.38	14.43803"
"12.44	7.43803"
"12.5	7.43803"
"12.56	14.43803"
"12.62	17.43803"
"12.68	17.43803"
"12.74	11.43803"
"12.8	4.43803"
"12.86	4.43803"
"12.92	4.43803"
"12.98	1.43803"
"13.04	4.43803"
"13.1	4.43803"
"13.16	8.43803"
"13.22	4.43803"
"13.28	0.43803"
"13.34	9.43803"
"13.4	7.43803"
"13.46	7.43803"
"13.52	2.43803"
"13.58	6.43803"
"13.64	10.43803"
"13.7	1.43803"
"13.76	4.43803"
"13.82	7.43803"
"13.88	14.43803"
"13.94	8.43803"
"14	5.43803"
"14.06	5.43803"
"14.12	11.43803"
"14.18	3.43803"
"14.24	2.43803"
"14.3	12.43803"
"14.36	-1.56197"
"14.42	0.43803"
"14.48	5.43803"
"14.54	5.43803"
"14.6	6.43803"
"14.66	9.43803"
"14.72	7.43803"
"14.78	5.43803"
"14.84	3.43803"
"14.9	3.43803"
"14.96	2.43803"
"15.02	4.43803"
"15.08	34.43803"
"15.14	31.43803"
"15.2	38.43803"
"15.26	24.43803"
"15.32	9.43803"
"15.38	6.43803"
"15.44	9.43803"
"15.5	19.43803"
"15.56	10.43803"
"15.62	6.43803"
"15.68	8.43803"
"15.74	16.43803"
"15.8	10.43803"
"15.86	7.43803"
"15.92	4.43803"
"15.98	13.43803"
"16.04	13.43803"
"16.1	4.43803"
"16.16	5.43803"
"16.22	5.43803"
"16.28	3.43803"
"16.34	5.43803"
"16.4	5.43803"
"16.46	4.43803"
"16.52	15.43803"
"16.58	20.43803"
"16.64	26.43803"
"16.7	15.43803"
"16.76	17.43803"
"16.82	13.43803"
"16.88	20.43803"
"16.94	37.43803"
"17	90.43803"
"17.06	113.438"
"17.12	94.43803"
"17.18	44.43803"
"17.24	25.43803"
"17.3	13.43803"
"17.36	39.43803"
"17.42	8.43803"
"17.48	6.43803"
"17.54	28.43803"
"17.6	22.43803"
"17.66	17.43803"
"17.72	9.43803"
"17.78	14.43803"
"17.84	9.43803"
"17.9	11.43803"
"17.96	6.43803"
"18.02	-0.56197"
"18.08	6.43803"
"18.14	11.43803"
"18.2	15.43803"
"18.26	18.43803"
"18.32	14.43803"
"18.38	12.43803"
"18.44	7.43803"
"18.5	0.43803"
"18.56	-0.56197"
"18.62	5.43803"
"18.68	8.43803"
"18.74	-0.56197"
"18.8	9.43803"
"18.86	14.43803"
"18.92	13.43803"
"18.98	26.43803"
"19.04	17.43803"
"19.1	11.43803"
"19.16	6.43803"
"19.22	8.43803"
"19.28	4.43803"
"19.34	12.43803"
"19.4	14.43803"
"19.46	12.43803"
"19.52	9.43803"
"19.58	2.43803"
"19.64	6.43803"
"19.7	1.43803"
"19.76	9.43803"
"19.82	12.43803"
"19.88	12.43803"
"19.94	10.43803"
"20	16.43803"
"20.06	47.43803"
"20.12	84.43803"
"20.18	72.43803"
"20.24	38.43803"
"20.3	28.43803"
"20.36	11.43803"
"20.42	10.43803"
"20.48	12.43803"
"20.54	4.43803"
"20.6	0.43803"
"20.66	-2.56197"
"20.72	4.43803"
"20.78	7.43803"
"20.84	7.43803"
"20.9	3.43803"
"20.96	0.43803"
"21.02	11.43803"
"21.08	4.43803"
"21.14	0.43803"
"21.2	1.43803"
"21.26	1.43803"
"21.32	-1.56197"
"21.38	-0.56197"
"21.44	3.43803"
"21.5	13.43803"
"21.56	-1.56197"
"21.62	0.43803"
"21.68	4.43803"
"21.74	7.43803"
"21.8	4.43803"
"21.86	2.43803"
"21.92	-1.56197"
"21.98	6.43803"
"22.04	0.43803"
"22.1	1.43803"
"22.16	4.43803"
"22.22	-1.56197"
"22.28	-1.56197"
"22.34	-0.56197"
"22.4	0.43803"
"22.46	-0.56197"
"22.52	3.43803"
"22.58	2.43803"
"22.64	0.43803"
"22.7	-2.56197"
"22.76	-0.56197"
"22.82	0.43803"
"22.88	1.43803"
"22.94	0.43803"
"22.98	2.43803"